* Measurement data measured by REW V5.20.9
* Source: Microphone (Realtek(R) Audio), MICROPHONE (Master Volume), R, volume: 0.250
* Format: 256k Log Swept Sine, 1 sweep at 0.0 dBFS with no timing reference
* Dated: 10/11/2022 4:35:30 PM
* REW Settings:
*  C-weighting compensation: Off
*  Target level: 75.0 dB
* Note: ; 
* Measurement: Fourte R
* Smoothing: 1/24 octave
* Frequency Step: 1/48 octave
* Start Frequency: 20.000 Hz
*
* Freq(Hz)	SPL(dB)	Phase(degrees)
20.000000	97.011	5.2620
20.299999	97.012	4.7864
20.600000	97.013	4.3013
20.900000	97.012	3.8058
21.200001	97.006	3.3102
21.400000	96.999	2.9895
21.799999	96.982	2.3854
22.000000	96.973	2.1052
22.400000	96.958	1.5825
22.700001	96.949	1.2052
23.000000	96.944	0.8209
23.299999	96.939	0.4203
23.600000	96.933	0.0046
24.000000	96.921	-0.5601
24.299999	96.908	-0.9767
24.700001	96.888	-1.5086
25.000000	96.872	-1.8873
25.400000	96.851	-2.3687
25.799999	96.831	-2.8295
26.200001	96.813	-3.2745
26.500000	96.800	-3.6011
26.900000	96.785	-4.0322
27.200001	96.774	-4.3572
27.600000	96.761	-4.7955
28.000000	96.745	-5.2360
28.500000	96.724	-5.7784
29.000000	96.702	-6.3091
29.500000	96.679	-6.8381
30.000000	96.651	-7.3624
30.400000	96.625	-7.7579
30.700001	96.604	-8.0291
31.100000	96.579	-8.3563
31.500000	96.559	-8.6649
32.000000	96.543	-9.0767
32.500000	96.528	-9.5533
33.000000	96.505	-10.0714
33.500000	96.472	-10.5726
34.000000	96.436	-11.0223
34.500000	96.403	-11.4365
35.000000	96.373	-11.8476
35.500000	96.342	-12.2662
36.000000	96.309	-12.6752
36.500000	96.275	-13.0574
37.000000	96.242	-13.4155
37.500000	96.212	-13.7656
38.200001	96.173	-14.2635
38.700001	96.144	-14.6238
39.500000	96.095	-15.1937
40.000000	96.063	-15.5386
40.599998	96.024	-15.9335
41.200001	95.986	-16.3085
41.799999	95.950	-16.6747
42.500000	95.908	-17.0998
43.099998	95.872	-17.4578
43.700001	95.835	-17.8082
44.400002	95.792	-18.2079
45.000000	95.753	-18.5322
45.500000	95.722	-18.7844
46.200001	95.681	-19.1294
46.799999	95.648	-19.4410
47.500000	95.606	-19.8125
48.200001	95.562	-20.1638
48.700001	95.531	-20.4071
49.400002	95.489	-20.7582
50.000000	95.451	-21.0651
50.799999	95.398	-21.4542
51.500000	95.352	-21.7719
52.200001	95.307	-22.0783
53.000000	95.258	-22.4186
53.799999	95.209	-22.7515
54.500000	95.167	-23.0367
55.200001	95.126	-23.3128
56.000000	95.080	-23.6252
57.000000	95.022	-24.0248
58.000000	94.960	-24.4095
59.000000	94.898	-24.7579
60.000000	94.839	-25.0875
60.799999	94.793	-25.3524
61.500000	94.753	-25.5847
62.200001	94.713	-25.8102
63.000000	94.667	-26.0575
64.000000	94.612	-26.3626
65.000000	94.556	-26.6609
66.000000	94.501	-26.9431
67.000000	94.447	-27.2192
68.000000	94.393	-27.4897
69.000000	94.338	-27.7460
70.000000	94.285	-27.9913
71.000000	94.231	-28.2303
72.000000	94.179	-28.4664
73.000000	94.126	-28.7034
74.000000	94.072	-28.9346
75.000000	94.020	-29.1486
76.199997	93.960	-29.3954
77.500000	93.898	-29.6545
78.800003	93.838	-29.9066
80.000000	93.782	-30.1403
81.199997	93.723	-30.3525
82.500000	93.660	-30.5745
83.800003	93.597	-30.7948
85.000000	93.541	-30.9945
86.199997	93.486	-31.2025
87.500000	93.429	-31.4003
88.500000	93.389	-31.5388
90.000000	93.331	-31.7606
91.199997	93.282	-31.9288
92.500000	93.227	-32.0838
93.800003	93.175	-32.2410
95.000000	93.126	-32.3964
96.199997	93.078	-32.5471
97.500000	93.027	-32.7081
98.800003	92.977	-32.8593
100.000000	92.933	-32.9862
101.500000	92.878	-33.1431
103.000000	92.824	-33.2994
104.400002	92.772	-33.4355
106.000000	92.715	-33.5816
107.500000	92.665	-33.7245
109.000000	92.615	-33.8674
110.599998	92.562	-34.0070
112.000000	92.516	-34.1204
113.800003	92.458	-34.2510
115.000000	92.421	-34.3414
117.199997	92.355	-34.5194
118.000000	92.331	-34.5787
120.599998	92.257	-34.7588
122.000000	92.218	-34.8552
124.099998	92.159	-34.9945
125.000000	92.134	-35.0504
126.500000	92.093	-35.1382
128.000000	92.054	-35.2236
131.500000	91.966	-35.4215
132.000000	91.954	-35.4492
134.000000	91.905	-35.5592
136.000000	91.857	-35.6635
138.000000	91.812	-35.7621
140.000000	91.768	-35.8661
143.000000	91.703	-36.0214
145.000000	91.661	-36.1213
147.500000	91.608	-36.2393
150.000000	91.556	-36.3529
152.500000	91.508	-36.4716
155.000000	91.461	-36.5713
157.500000	91.418	-36.6614
160.000000	91.375	-36.7623
162.500000	91.331	-36.8658
165.000000	91.290	-36.9709
167.500000	91.252	-37.0767
170.000000	91.214	-37.1829
172.500000	91.178	-37.2866
175.000000	91.144	-37.3899
177.500000	91.111	-37.4894
180.000000	91.078	-37.5778
182.500000	91.046	-37.6637
185.000000	91.014	-37.7601
187.500000	90.983	-37.8674
190.000000	90.954	-37.9750
192.500000	90.926	-38.0746
195.000000	90.899	-38.1703
197.500000	90.873	-38.2648
200.000000	90.847	-38.3544
203.000000	90.816	-38.4572
206.000000	90.784	-38.5566
209.000000	90.753	-38.6575
212.000000	90.722	-38.7515
214.000000	90.702	-38.7990
218.000000	90.662	-38.8469
220.000000	90.645	-38.8514
224.000000	90.622	-38.8251
227.000000	90.619	-38.7787
230.000000	90.628	-38.7628
233.000000	90.646	-38.8448
236.000000	90.663	-39.0325
240.000000	90.674	-39.3641
243.000000	90.673	-39.6157
247.000000	90.664	-39.9327
250.000000	90.656	-40.1613
254.000000	90.644	-40.4453
258.000000	90.634	-40.7081
262.000000	90.624	-40.9600
265.000000	90.618	-41.1437
269.000000	90.610	-41.3821
272.000000	90.605	-41.5590
276.000000	90.601	-41.8065
280.000000	90.597	-42.0646
285.000000	90.595	-42.3792
290.000000	90.594	-42.6954
295.000000	90.595	-43.0257
300.000000	90.597	-43.3634
304.000000	90.601	-43.6356
307.000000	90.604	-43.8405
311.000000	90.610	-44.1154
315.000000	90.615	-44.3962
320.000000	90.624	-44.7612
325.000000	90.635	-45.1390
330.000000	90.645	-45.5220
335.000000	90.656	-45.9110
340.000000	90.667	-46.3048
345.000000	90.679	-46.7003
350.000000	90.692	-47.0894
355.000000	90.706	-47.4699
360.000000	90.725	-47.8475
365.000000	90.749	-48.2446
370.000000	90.775	-48.6648
375.000000	90.803	-49.0886
382.000000	90.852	-49.7370
387.000000	90.886	-50.2783
395.000000	90.926	-51.1887
400.000000	90.947	-51.7512
406.000000	90.970	-52.4198
412.000000	90.994	-53.0882
418.000000	91.017	-53.7570
425.000000	91.044	-54.5449
431.000000	91.068	-55.2306
437.000000	91.094	-55.9226
444.000000	91.123	-56.7379
450.000000	91.147	-57.4446
455.000000	91.168	-58.0370
462.000000	91.198	-58.8710
468.000000	91.226	-59.5930
475.000000	91.260	-60.4534
482.000000	91.297	-61.3392
487.000000	91.325	-61.9904
494.000000	91.365	-62.9307
500.000000	91.400	-63.7645
508.000000	91.445	-64.9160
515.000000	91.482	-65.9634
522.000000	91.517	-67.0483
530.000000	91.555	-68.3350
538.000000	91.587	-69.6716
545.000000	91.612	-70.8828
552.000000	91.633	-72.1273
560.000000	91.652	-73.5842
570.000000	91.665	-75.4609
580.000000	91.666	-77.3959
590.000000	91.652	-79.3763
600.000000	91.622	-81.3813
608.000000	91.586	-82.9985
615.000000	91.545	-84.4225
622.000000	91.497	-85.8489
630.000000	91.431	-87.4755
640.000000	91.334	-89.4971
650.000000	91.218	-91.4854
660.000000	91.085	-93.4233
670.000000	90.936	-95.3077
680.000000	90.772	-97.1267
690.000000	90.594	-98.8666
700.000000	90.402	-100.5236
710.000000	90.199	-102.0784
720.000000	89.984	-103.5309
730.000000	89.762	-104.8819
740.000000	89.533	-106.1238
750.000000	89.298	-107.2569
762.000000	89.012	-108.4693
775.000000	88.700	-109.6084
788.000000	88.386	-110.5682
800.000000	88.096	-111.2941
812.000000	87.810	-111.8657
825.000000	87.506	-112.3231
838.000000	87.211	-112.6375
850.000000	86.946	-112.8036
862.000000	86.691	-112.8552
875.000000	86.425	-112.7874
885.000000	86.229	-112.6508
900.000000	85.948	-112.3350
912.000000	85.737	-111.9910
925.000000	85.520	-111.5198
938.000000	85.316	-110.9518
950.000000	85.144	-110.3400
962.000000	84.988	-109.6573
975.000000	84.839	-108.8604
988.000000	84.711	-108.0337
1000.000000	84.609	-107.2668
1015.000000	84.498	-106.3080
1030.000000	84.403	-105.3380
1044.000000	84.329	-104.4067
1060.000000	84.262	-103.2998
1075.000000	84.222	-102.2241
1090.000000	84.207	-101.1316
1106.000000	84.218	-100.0039
1120.000000	84.249	-99.0829
1138.000000	84.308	-98.0032
1150.000000	84.358	-97.3497
1172.000000	84.465	-96.2809
1180.000000	84.508	-95.9302
1206.000000	84.660	-94.9030
1220.000000	84.750	-94.4044
1241.000000	84.891	-93.7393
1250.000000	84.953	-93.4851
1265.000000	85.059	-93.0979
1280.000000	85.170	-92.7503
1315.000000	85.444	-92.1095
1320.000000	85.485	-92.0364
1340.000000	85.649	-91.7791
1360.000000	85.818	-91.5775
1380.000000	85.989	-91.4435
1400.000000	86.162	-91.3831
1430.000000	86.425	-91.3779
1450.000000	86.602	-91.4359
1475.000000	86.825	-91.5973
1500.000000	87.051	-91.8301
1525.000000	87.277	-92.1335
1550.000000	87.502	-92.5139
1575.000000	87.729	-92.9971
1600.000000	87.953	-93.5530
1625.000000	88.173	-94.1495
1650.000000	88.388	-94.8162
1675.000000	88.601	-95.5636
1700.000000	88.811	-96.3530
1725.000000	89.017	-97.1913
1750.000000	89.220	-98.0827
1775.000000	89.419	-99.0273
1800.000000	89.613	-100.0310
1825.000000	89.800	-101.0860
1850.000000	89.980	-102.1843
1875.000000	90.153	-103.3207
1900.000000	90.318	-104.4943
1925.000000	90.476	-105.7004
1950.000000	90.627	-106.9342
1975.000000	90.771	-108.2015
2000.000000	90.904	-109.4874
2030.000000	91.052	-111.0336
2060.000000	91.185	-112.5953
2090.000000	91.304	-114.1582
2120.000000	91.414	-115.6827
2140.000000	91.484	-116.6862
2180.000000	91.616	-118.6932
2200.000000	91.677	-119.6991
2240.000000	91.783	-121.7114
2270.000000	91.850	-123.1981
2300.000000	91.910	-124.6481
2330.000000	91.962	-126.0685
2360.000000	92.006	-127.4572
2400.000000	92.054	-129.2075
2430.000000	92.088	-130.4376
2470.000000	92.137	-132.0496
2500.000000	92.172	-133.2632
2540.000000	92.210	-134.8517
2580.000000	92.245	-136.3827
2620.000000	92.282	-137.9037
2650.000000	92.306	-139.0701
2690.000000	92.323	-140.6151
2720.000000	92.322	-141.7183
2760.000000	92.312	-143.0575
2800.000000	92.314	-144.2419
2850.000000	92.343	-145.6825
2900.000000	92.385	-147.2235
2950.000000	92.427	-148.8613
3000.000000	92.458	-150.6156
3040.000000	92.467	-152.0501
3070.000000	92.461	-153.1437
3110.000000	92.438	-154.6192
3150.000000	92.398	-156.0654
3200.000000	92.324	-157.7806
3250.000000	92.224	-159.3394
3300.000000	92.106	-160.7144
3350.000000	91.976	-161.8832
3400.000000	91.843	-162.8402
3450.000000	91.717	-163.5947
3500.000000	91.606	-164.2040
3550.000000	91.511	-164.7639
3600.000000	91.423	-165.3151
3650.000000	91.333	-165.8504
3700.000000	91.235	-166.3415
3750.000000	91.123	-166.7535
3820.000000	90.935	-167.0855
3870.000000	90.788	-166.9511
3950.000000	90.611	-165.8998
4000.000000	90.593	-164.9404
4060.000000	90.680	-164.0061
4120.000000	90.819	-163.7578
4180.000000	90.905	-164.1041
4250.000000	90.886	-164.4234
4310.000000	90.828	-164.0563
4370.000000	90.817	-163.1329
4440.000000	90.914	-161.7694
4500.000000	91.089	-160.7175
4550.000000	91.280	-160.0612
4620.000000	91.588	-159.5167
4680.000000	91.878	-159.3817
4750.000000	92.243	-159.6125
4820.000000	92.628	-160.3299
4870.000000	92.906	-161.2302
4940.000000	93.266	-163.1442
5000.000000	93.508	-165.3351
5080.000000	93.690	-168.6840
5150.000000	93.716	-171.5620
5220.000000	93.648	-174.0635
5300.000000	93.507	-176.3325
5380.000000	93.342	-178.0384
5450.000000	93.200	-179.1865
5520.000000	93.068	179.8851
5600.000000	92.926	179.0268
5700.000000	92.756	178.2029
5800.000000	92.592	177.6327
5900.000000	92.435	177.3207
6000.000000	92.285	177.2745
6080.000000	92.173	177.4443
6150.000000	92.084	177.7335
6220.000000	92.007	178.1450
6300.000000	91.935	178.7618
6400.000000	91.874	179.7422
6500.000000	91.851	-179.0613
6600.000000	91.874	-177.6858
6700.000000	91.949	-176.1661
6800.000000	92.085	-174.5543
6900.000000	92.286	-172.8993
7000.000000	92.561	-171.2707
7100.000000	92.921	-169.7760
7200.000000	93.372	-168.5195
7300.000000	93.919	-167.6447
7400.000000	94.568	-167.3320
7500.000000	95.321	-167.8322
7620.000000	96.339	-170.0718
7750.000000	97.446	-175.5083
7880.000000	98.283	175.4246
8000.000000	98.565	164.6002
8120.000000	98.250	153.4290
8250.000000	97.309	143.4471
8380.000000	95.992	137.0013
8500.000000	94.671	134.0785
8620.000000	93.394	133.4598
8750.000000	92.142	134.7208
8850.000000	91.300	136.7054
9000.000000	90.258	140.8232
9120.000000	89.617	144.7084
9250.000000	89.098	149.1913
9380.000000	88.737	153.8002
9500.000000	88.541	158.0380
9620.000000	88.464	162.1265
9750.000000	88.510	166.3135
9880.000000	88.687	169.9404
10000.000000	88.904	172.5425
10150.000000	89.161	175.2531
10300.000000	89.481	178.0557
10440.000000	89.947	-179.5874
10600.000000	90.669	-178.1251
10750.000000	91.442	-178.5865
10900.000000	92.200	178.8047
11060.000000	92.859	173.4271
11200.000000	93.160	166.6573
11380.000000	92.985	156.6046
11500.000000	92.503	150.3252
11720.000000	91.040	142.0081
11800.000000	90.397	140.2410
12060.000000	88.230	138.6282
12200.000000	87.126	139.7468
12410.000000	85.639	143.0402
12500.000000	85.068	144.8761
12650.000000	84.199	148.3395
12800.000000	83.425	152.1801
13150.000000	81.940	162.0848
13200.000000	81.761	163.5708
13400.000000	81.117	169.6165
13600.000000	80.580	175.7706
13800.000000	80.136	-178.0314
14000.000000	79.769	-171.7992
14300.000000	79.357	-162.2213
14500.000000	79.200	-155.6351
14750.000000	79.171	-147.3788
15000.000000	79.335	-139.3173
15250.000000	79.702	-131.6609
15500.000000	80.290	-124.7493
15750.000000	81.075	-119.2305
16000.000000	81.868	-115.7977
16250.000000	82.389	-112.7607
16500.000000	83.308	-105.3723
16750.000000	86.069	-96.4098
17000.000000	89.889	-96.4407
17250.000000	93.213	-111.9312
17500.000000	94.992	-142.7781
17750.000000	94.814	179.8124
18000.000000	92.895	145.9736
18250.000000	89.593	120.9387
18500.000000	85.263	106.8752
18750.000000	80.389	102.5095
19000.000000	75.492	104.7195
19250.000000	70.914	110.9485
19500.000000	66.750	119.6034
19750.000000	63.034	128.8262
