* Measurement data measured by REW V5.20.13
* Source: Primary Sound Capture Driver, no input selected, R, volume: no control
* Format: 256k Log Swept Sine, 1 sweep at 0.0 dBFS with no timing reference
* Dated: 01/11/2023 12:13:00 PM
* REW Settings:
*  C-weighting compensation: Off
*  Target level: 75.0 dB
* Note: ; 
* Measurement: Astell&Kern Aura R
* Smoothing: 1/24 octave
* Frequency Step: 1/48 octave
* Start Frequency: 20.000 Hz
*
* Freq(Hz)	SPL(dB)	Phase(degrees)
20.000000	102.443	-3.2363
20.299999	102.439	-3.5029
20.600000	102.435	-3.7545
20.900000	102.432	-3.9955
21.200001	102.430	-4.2341
21.400000	102.428	-4.3954
21.799999	102.420	-4.7208
22.000000	102.413	-4.8803
22.400000	102.396	-5.1777
22.700001	102.379	-5.3714
23.000000	102.363	-5.5386
23.299999	102.349	-5.6906
23.600000	102.336	-5.8414
24.000000	102.321	-6.0598
24.299999	102.309	-6.2415
24.700001	102.291	-6.4988
25.000000	102.276	-6.6922
25.400000	102.254	-6.9425
25.799999	102.235	-7.1892
26.200001	102.217	-7.4461
26.500000	102.205	-7.6497
26.900000	102.188	-7.9314
27.200001	102.174	-8.1419
27.600000	102.155	-8.4102
28.000000	102.137	-8.6599
28.500000	102.117	-8.9544
29.000000	102.100	-9.2445
29.500000	102.082	-9.5305
30.000000	102.062	-9.7942
30.400000	102.045	-9.9787
30.700001	102.033	-10.1028
31.100000	102.019	-10.2608
31.500000	102.007	-10.4250
32.000000	101.991	-10.6536
32.500000	101.971	-10.8996
33.000000	101.946	-11.1377
33.500000	101.920	-11.3564
34.000000	101.896	-11.5687
34.500000	101.875	-11.7937
35.000000	101.853	-12.0322
35.500000	101.830	-12.2682
36.000000	101.808	-12.4894
36.500000	101.790	-12.7006
37.000000	101.775	-12.9154
37.500000	101.760	-13.1387
38.200001	101.737	-13.4464
38.700001	101.720	-13.6475
39.500000	101.692	-13.9439
40.000000	101.674	-14.1262
40.599998	101.650	-14.3387
41.200001	101.624	-14.5319
41.799999	101.599	-14.7142
42.500000	101.573	-14.9457
43.099998	101.549	-15.1656
43.700001	101.523	-15.3857
44.400002	101.496	-15.6379
45.000000	101.474	-15.8633
45.500000	101.456	-16.0526
46.200001	101.431	-16.2964
46.799999	101.415	-16.4950
47.500000	101.399	-16.7658
48.200001	101.373	-17.0669
48.700001	101.348	-17.2496
49.400002	101.312	-17.4224
50.000000	101.287	-17.5359
50.799999	101.260	-17.7185
51.500000	101.234	-17.9030
52.200001	101.207	-18.0825
53.000000	101.176	-18.2893
53.799999	101.146	-18.5085
54.500000	101.119	-18.7035
55.200001	101.093	-18.8992
56.000000	101.064	-19.1233
57.000000	101.027	-19.3953
58.000000	100.992	-19.6582
59.000000	100.958	-19.9222
60.000000	100.921	-20.1816
60.799999	100.892	-20.3794
61.500000	100.866	-20.5489
62.200001	100.841	-20.7174
63.000000	100.811	-20.9063
64.000000	100.774	-21.1369
65.000000	100.739	-21.3711
66.000000	100.702	-21.6069
67.000000	100.667	-21.8408
68.000000	100.631	-22.0841
69.000000	100.594	-22.3196
70.000000	100.557	-22.5368
71.000000	100.522	-22.7562
72.000000	100.486	-22.9739
73.000000	100.449	-23.1872
74.000000	100.411	-23.3998
75.000000	100.373	-23.6084
76.199997	100.328	-23.8606
77.500000	100.279	-24.1361
78.800003	100.230	-24.4026
80.000000	100.185	-24.6433
81.199997	100.140	-24.8811
82.500000	100.090	-25.1296
83.800003	100.040	-25.3739
85.000000	99.992	-25.6070
86.199997	99.943	-25.8411
87.500000	99.888	-26.0923
88.500000	99.846	-26.2841
90.000000	99.782	-26.5759
91.199997	99.727	-26.8014
92.500000	99.665	-27.0236
93.800003	99.600	-27.2346
95.000000	99.535	-27.4218
96.199997	99.466	-27.5925
97.500000	99.390	-27.7817
98.800003	99.308	-27.9910
100.000000	99.222	-28.1469
101.500000	99.108	-28.2500
103.000000	98.982	-28.2444
104.400002	98.849	-28.0686
106.000000	98.687	-27.5448
107.500000	98.547	-26.6337
109.000000	98.466	-25.2910
110.599998	98.505	-23.6458
112.000000	98.657	-22.5013
113.800003	98.932	-22.0269
115.000000	99.098	-22.3450
117.199997	99.282	-23.6317
118.000000	99.311	-24.1622
120.599998	99.317	-25.7147
122.000000	99.288	-26.3961
124.099998	99.226	-27.2336
125.000000	99.195	-27.5349
126.500000	99.142	-27.9746
128.000000	99.089	-28.3508
131.500000	98.965	-29.0722
132.000000	98.947	-29.1627
134.000000	98.880	-29.5006
136.000000	98.816	-29.8026
138.000000	98.755	-30.0745
140.000000	98.696	-30.3287
143.000000	98.613	-30.6954
145.000000	98.558	-30.9237
147.500000	98.490	-31.2098
150.000000	98.419	-31.5221
152.500000	98.346	-31.8407
155.000000	98.273	-32.1452
157.500000	98.198	-32.4228
160.000000	98.121	-32.6794
162.500000	98.044	-32.9250
165.000000	97.967	-33.1540
167.500000	97.890	-33.3584
170.000000	97.814	-33.5496
172.500000	97.738	-33.7338
175.000000	97.661	-33.9069
177.500000	97.585	-34.0675
180.000000	97.508	-34.2216
182.500000	97.430	-34.3694
185.000000	97.353	-34.5060
187.500000	97.276	-34.6337
190.000000	97.197	-34.7475
192.500000	97.119	-34.8427
195.000000	97.040	-34.9241
197.500000	96.960	-35.0023
200.000000	96.877	-35.0751
203.000000	96.777	-35.1416
206.000000	96.673	-35.1762
209.000000	96.566	-35.1808
212.000000	96.455	-35.1493
214.000000	96.379	-35.0959
218.000000	96.220	-34.8746
220.000000	96.137	-34.6880
224.000000	95.971	-34.0910
227.000000	95.859	-33.3826
230.000000	95.778	-32.4232
233.000000	95.756	-31.3002
236.000000	95.811	-30.2424
240.000000	95.982	-29.4370
243.000000	96.126	-29.4795
247.000000	96.256	-30.1953
250.000000	96.291	-30.9405
254.000000	96.272	-31.8920
258.000000	96.206	-32.6507
262.000000	96.120	-33.2128
265.000000	96.050	-33.5274
269.000000	95.955	-33.8431
272.000000	95.884	-34.0251
276.000000	95.791	-34.2178
280.000000	95.699	-34.3642
285.000000	95.589	-34.4857
290.000000	95.483	-34.5490
295.000000	95.381	-34.5776
300.000000	95.282	-34.5810
304.000000	95.204	-34.5638
307.000000	95.147	-34.5426
311.000000	95.072	-34.5066
315.000000	94.999	-34.4644
320.000000	94.911	-34.4042
325.000000	94.826	-34.3315
330.000000	94.742	-34.2433
335.000000	94.659	-34.1487
340.000000	94.577	-34.0476
345.000000	94.498	-33.9326
350.000000	94.422	-33.8074
355.000000	94.346	-33.6843
360.000000	94.272	-33.5653
365.000000	94.199	-33.4465
370.000000	94.127	-33.3242
375.000000	94.054	-33.1941
382.000000	93.951	-32.9840
387.000000	93.877	-32.8062
395.000000	93.760	-32.4700
400.000000	93.691	-32.2330
406.000000	93.613	-31.9300
412.000000	93.542	-31.6208
418.000000	93.479	-31.3207
425.000000	93.411	-30.9840
431.000000	93.354	-30.7023
437.000000	93.298	-30.4345
444.000000	93.232	-30.1360
450.000000	93.177	-29.8807
455.000000	93.131	-29.6643
462.000000	93.068	-29.3569
468.000000	93.017	-29.0892
475.000000	92.959	-28.7786
482.000000	92.902	-28.4710
487.000000	92.863	-28.2508
494.000000	92.808	-27.9413
500.000000	92.763	-27.6701
508.000000	92.703	-27.2922
515.000000	92.651	-26.9520
522.000000	92.601	-26.6127
530.000000	92.546	-26.2308
538.000000	92.495	-25.8532
545.000000	92.451	-25.5183
552.000000	92.410	-25.1759
560.000000	92.364	-24.7782
570.000000	92.309	-24.2750
580.000000	92.257	-23.7685
590.000000	92.207	-23.2614
600.000000	92.161	-22.7525
608.000000	92.127	-22.3444
615.000000	92.099	-21.9860
622.000000	92.072	-21.6274
630.000000	92.043	-21.2190
640.000000	92.009	-20.7050
650.000000	91.977	-20.1810
660.000000	91.945	-19.6485
670.000000	91.916	-19.1107
680.000000	91.889	-18.5732
690.000000	91.865	-18.0307
700.000000	91.845	-17.4867
710.000000	91.828	-16.9386
720.000000	91.814	-16.3892
730.000000	91.803	-15.8394
740.000000	91.793	-15.2838
750.000000	91.785	-14.7180
762.000000	91.780	-14.0262
775.000000	91.779	-13.2814
788.000000	91.784	-12.5375
800.000000	91.795	-11.8499
812.000000	91.811	-11.1573
825.000000	91.835	-10.4084
838.000000	91.864	-9.6706
850.000000	91.897	-8.9914
862.000000	91.934	-8.3128
875.000000	91.978	-7.5869
885.000000	92.016	-7.0299
900.000000	92.078	-6.2050
912.000000	92.135	-5.5664
925.000000	92.205	-4.8991
938.000000	92.281	-4.2659
950.000000	92.356	-3.7032
962.000000	92.435	-3.1591
975.000000	92.524	-2.5970
988.000000	92.616	-2.0700
1000.000000	92.705	-1.6154
1015.000000	92.820	-1.0919
1030.000000	92.940	-0.6226
1044.000000	93.054	-0.2329
1060.000000	93.187	0.1566
1075.000000	93.313	0.4704
1090.000000	93.440	0.7366
1106.000000	93.574	0.9664
1120.000000	93.690	1.1253
1138.000000	93.836	1.2778
1150.000000	93.931	1.3522
1172.000000	94.101	1.4343
1180.000000	94.162	1.4454
1206.000000	94.352	1.4321
1220.000000	94.452	1.4012
1241.000000	94.596	1.3190
1250.000000	94.656	1.2746
1265.000000	94.754	1.1962
1280.000000	94.848	1.1182
1315.000000	95.058	0.8950
1320.000000	95.087	0.8600
1340.000000	95.200	0.7277
1360.000000	95.310	0.6101
1380.000000	95.417	0.4845
1400.000000	95.522	0.3516
1430.000000	95.675	0.1913
1450.000000	95.776	0.0954
1475.000000	95.902	-0.0334
1500.000000	96.028	-0.1480
1525.000000	96.154	-0.2483
1550.000000	96.281	-0.3301
1575.000000	96.412	-0.4290
1600.000000	96.544	-0.5348
1625.000000	96.678	-0.6099
1650.000000	96.812	-0.6859
1675.000000	96.950	-0.7912
1700.000000	97.092	-0.8902
1725.000000	97.238	-0.9950
1750.000000	97.388	-1.1263
1775.000000	97.543	-1.2851
1800.000000	97.703	-1.4650
1825.000000	97.865	-1.6662
1850.000000	98.031	-1.9086
1875.000000	98.200	-2.2013
1900.000000	98.371	-2.5374
1925.000000	98.543	-2.9186
1950.000000	98.718	-3.3614
1975.000000	98.892	-3.8879
2000.000000	99.062	-4.4789
2030.000000	99.258	-5.2478
2060.000000	99.441	-6.1062
2090.000000	99.612	-7.0517
2120.000000	99.769	-8.0467
2140.000000	99.863	-8.7296
2180.000000	100.025	-10.1020
2200.000000	100.093	-10.7715
2240.000000	100.206	-12.0525
2270.000000	100.275	-12.9395
2300.000000	100.333	-13.7423
2330.000000	100.384	-14.4608
2360.000000	100.432	-15.1104
2400.000000	100.493	-15.8915
2430.000000	100.534	-16.4252
2470.000000	100.580	-17.1072
2500.000000	100.607	-17.6106
2540.000000	100.631	-18.2558
2580.000000	100.638	-18.8497
2620.000000	100.632	-19.3806
2650.000000	100.617	-19.7345
2690.000000	100.586	-20.1055
2720.000000	100.556	-20.3010
2760.000000	100.512	-20.4664
2800.000000	100.467	-20.5128
2850.000000	100.416	-20.4089
2900.000000	100.370	-20.1363
2950.000000	100.339	-19.7113
3000.000000	100.324	-19.1891
3040.000000	100.322	-18.6726
3070.000000	100.327	-18.2485
3110.000000	100.347	-17.6604
3150.000000	100.384	-17.0447
3200.000000	100.454	-16.2653
3250.000000	100.548	-15.4902
3300.000000	100.666	-14.7614
3350.000000	100.809	-14.1226
3400.000000	100.974	-13.6105
3450.000000	101.155	-13.2682
3500.000000	101.348	-13.1313
3550.000000	101.542	-13.2327
3600.000000	101.731	-13.5891
3650.000000	101.900	-14.1903
3700.000000	102.036	-14.9828
3750.000000	102.129	-15.8825
3820.000000	102.183	-17.1542
3870.000000	102.173	-17.9261
3950.000000	102.097	-18.7275
4000.000000	102.031	-18.9090
4060.000000	101.952	-18.8143
4120.000000	101.891	-18.4571
4180.000000	101.857	-17.9276
4250.000000	101.853	-17.2199
4310.000000	101.876	-16.6470
4370.000000	101.912	-16.1631
4440.000000	101.953	-15.7289
4500.000000	101.976	-15.4208
4550.000000	101.981	-15.1476
4620.000000	101.976	-14.6793
4680.000000	101.969	-14.1728
4750.000000	101.970	-13.4787
4820.000000	101.985	-12.7288
4870.000000	102.004	-12.1878
4940.000000	102.038	-11.4656
5000.000000	102.074	-10.8972
5080.000000	102.121	-10.2245
5150.000000	102.157	-9.7106
5220.000000	102.185	-9.2559
5300.000000	102.200	-8.7858
5380.000000	102.194	-8.3309
5450.000000	102.171	-7.9211
5520.000000	102.131	-7.4797
5600.000000	102.063	-6.8986
5700.000000	101.949	-6.0106
5800.000000	101.809	-4.8935
5900.000000	101.652	-3.5158
6000.000000	101.488	-1.8606
6080.000000	101.353	-0.3226
6150.000000	101.238	1.1669
6220.000000	101.131	2.7789
6300.000000	101.021	4.7609
6400.000000	100.909	7.4152
6500.000000	100.829	10.2240
6600.000000	100.786	13.1264
6700.000000	100.783	16.0563
6800.000000	100.820	18.9399
6900.000000	100.893	21.7115
7000.000000	100.997	24.3084
7100.000000	101.129	26.6657
7200.000000	101.281	28.7198
7300.000000	101.436	30.3776
7400.000000	101.566	31.6257
7500.000000	101.646	32.5806
7620.000000	101.662	33.6527
7750.000000	101.622	35.0651
7880.000000	101.567	36.6441
8000.000000	101.506	38.2883
8120.000000	101.476	40.0953
8250.000000	101.510	41.8496
8380.000000	101.588	42.8079
8500.000000	101.611	42.6559
8620.000000	101.489	41.6822
8750.000000	101.122	40.3401
8850.000000	100.668	39.6457
9000.000000	99.769	39.9223
9120.000000	98.944	41.5631
9250.000000	98.033	44.7090
9380.000000	97.168	49.0273
9500.000000	96.444	53.7961
9620.000000	95.803	59.0991
9750.000000	95.207	65.2433
9880.000000	94.712	71.6231
10000.000000	94.340	77.5866
10150.000000	93.978	84.9829
10300.000000	93.717	92.1573
10440.000000	93.545	98.5178
10600.000000	93.406	105.2624
10750.000000	93.296	110.9980
10900.000000	93.170	116.1410
11060.000000	92.973	121.0499
11200.000000	92.714	125.0340
11380.000000	92.232	130.1472
11500.000000	91.815	133.8356
11720.000000	90.891	141.7972
11800.000000	90.524	145.1759
12060.000000	89.318	158.0860
12200.000000	88.699	166.2874
12410.000000	87.917	-179.9304
12500.000000	87.662	-173.5935
12650.000000	87.361	-162.6533
12800.000000	87.220	-151.4303
13150.000000	87.536	-125.1654
13200.000000	87.655	-121.4958
13400.000000	88.307	-107.2773
13600.000000	89.227	-94.1308
13800.000000	90.372	-82.5175
14000.000000	91.669	-72.8842
14300.000000	93.673	-62.7877
14500.000000	94.886	-58.9398
14750.000000	96.133	-56.6683
15000.000000	97.044	-56.1551
15250.000000	97.655	-56.6134
15500.000000	97.991	-57.9514
15750.000000	97.975	-60.1761
16000.000000	97.495	-62.1757
16250.000000	96.606	-61.7816
16500.000000	95.700	-58.3187
16750.000000	95.198	-54.3966
17000.000000	95.058	-54.6255
17250.000000	94.398	-62.1341
17500.000000	92.032	-66.4151
17750.000000	88.187	-54.0283
18000.000000	84.846	-30.4330
18250.000000	83.596	-7.2532
18500.000000	83.570	11.5455
18750.000000	83.891	26.6657
19000.000000	84.291	38.9968
19250.000000	84.651	49.1560
19500.000000	84.907	57.7825
19750.000000	85.059	64.9193
