* Measurement data measured by REW V5.20.9
* Source: Input device not selected, no input selected, R, volume: no control
* Format: 256k Log Swept Sine, 1 sweep at 0.0 dBFS with no timing reference
* Dated: 24/03/2023 3:50:11 PM
* REW Settings:
*  C-weighting compensation: Off
*  Target level: 75.0 dB
* Note: ; 
* Measurement: Ronin R
* Smoothing: 1/24 octave
* Frequency Step: 1/48 octave
* Start Frequency: 20.000 Hz
*
* Freq(Hz)	SPL(dB)	Phase(degrees)
20.000000	100.043	15.6119
20.299999	100.071	15.3413
20.600000	100.104	15.0066
20.900000	100.136	14.6012
21.200001	100.160	14.1460
21.400000	100.170	13.8378
21.799999	100.182	13.2443
22.000000	100.186	12.9713
22.400000	100.191	12.4763
22.700001	100.196	12.1361
23.000000	100.201	11.8126
23.299999	100.205	11.5098
23.600000	100.210	11.2355
24.000000	100.219	10.9183
24.299999	100.230	10.7035
24.700001	100.252	10.4149
25.000000	100.269	10.1796
25.400000	100.289	9.8458
25.799999	100.303	9.5251
26.200001	100.317	9.2397
26.500000	100.331	9.0291
26.900000	100.355	8.7021
27.200001	100.370	8.3950
27.600000	100.377	7.9150
28.000000	100.360	7.4411
28.500000	100.317	7.0177
29.000000	100.282	6.8247
29.500000	100.280	6.7017
30.000000	100.301	6.4425
30.400000	100.316	6.1049
30.700001	100.320	5.8094
31.100000	100.316	5.4206
31.500000	100.305	5.0757
32.000000	100.293	4.7083
32.500000	100.287	4.3742
33.000000	100.285	4.0454
33.500000	100.284	3.7224
34.000000	100.285	3.4120
34.500000	100.287	3.1141
35.000000	100.290	2.8221
35.500000	100.294	2.5248
36.000000	100.293	2.2159
36.500000	100.286	1.9109
37.000000	100.271	1.6488
37.500000	100.254	1.4567
38.200001	100.241	1.2644
38.700001	100.242	1.1102
39.500000	100.246	0.7606
40.000000	100.245	0.5009
40.599998	100.240	0.1694
41.200001	100.233	-0.1858
41.799999	100.220	-0.5508
42.500000	100.200	-0.9449
43.099998	100.187	-1.2480
43.700001	100.180	-1.5524
44.400002	100.173	-1.9370
45.000000	100.164	-2.2747
45.500000	100.152	-2.5293
46.200001	100.133	-2.8004
46.799999	100.125	-2.9547
47.500000	100.131	-3.1255
48.200001	100.141	-3.3690
48.700001	100.142	-3.5773
49.400002	100.132	-3.8438
50.000000	100.120	-4.0155
50.799999	100.109	-4.2155
51.500000	100.102	-4.4323
52.200001	100.089	-4.6836
53.000000	100.069	-4.9566
53.799999	100.053	-5.2228
54.500000	100.041	-5.4849
55.200001	100.028	-5.7546
56.000000	100.016	-6.0459
57.000000	100.006	-6.4266
58.000000	99.988	-6.7867
59.000000	99.971	-7.0605
60.000000	99.957	-7.3131
60.799999	99.944	-7.5154
61.500000	99.931	-7.6924
62.200001	99.917	-7.8757
63.000000	99.898	-8.0879
64.000000	99.876	-8.3503
65.000000	99.856	-8.6440
66.000000	99.832	-8.9730
67.000000	99.799	-9.2339
68.000000	99.777	-9.3871
69.000000	99.772	-9.5808
70.000000	99.761	-9.8352
71.000000	99.746	-10.0458
72.000000	99.736	-10.2704
73.000000	99.722	-10.5328
74.000000	99.703	-10.7866
75.000000	99.682	-11.0291
76.199997	99.656	-11.2928
77.500000	99.629	-11.5569
78.800003	99.606	-11.8346
80.000000	99.582	-12.1069
81.199997	99.557	-12.3628
82.500000	99.531	-12.6371
83.800003	99.505	-12.9124
85.000000	99.478	-13.1496
86.199997	99.450	-13.3680
87.500000	99.419	-13.6000
88.500000	99.394	-13.7761
90.000000	99.359	-14.0472
91.199997	99.330	-14.2707
92.500000	99.299	-14.4978
93.800003	99.271	-14.7031
95.000000	99.246	-14.8893
96.199997	99.219	-15.0767
97.500000	99.186	-15.2649
98.800003	99.153	-15.4409
100.000000	99.122	-15.6034
101.500000	99.085	-15.8147
103.000000	99.049	-16.0124
104.400002	99.020	-16.1977
106.000000	98.985	-16.4077
107.500000	98.951	-16.5823
109.000000	98.919	-16.7684
110.599998	98.880	-16.9888
112.000000	98.842	-17.1610
113.800003	98.795	-17.3754
115.000000	98.763	-17.5072
117.199997	98.705	-17.7284
118.000000	98.683	-17.8021
120.599998	98.606	-17.9855
122.000000	98.563	-18.0575
124.099998	98.494	-18.1227
125.000000	98.463	-18.1267
126.500000	98.413	-18.0899
128.000000	98.367	-17.9980
131.500000	98.288	-17.5364
132.000000	98.283	-17.4476
134.000000	98.286	-17.1046
136.000000	98.323	-16.9072
138.000000	98.375	-16.9713
140.000000	98.414	-17.2747
143.000000	98.424	-17.9142
145.000000	98.404	-18.3107
147.500000	98.366	-18.6958
150.000000	98.327	-18.9807
152.500000	98.292	-19.2213
155.000000	98.264	-19.4605
157.500000	98.238	-19.7341
160.000000	98.207	-20.0499
162.500000	98.168	-20.3831
165.000000	98.123	-20.6942
167.500000	98.074	-20.9706
170.000000	98.021	-21.2139
172.500000	97.968	-21.4243
175.000000	97.914	-21.6045
177.500000	97.862	-21.7604
180.000000	97.810	-21.9050
182.500000	97.757	-22.0475
185.000000	97.705	-22.1713
187.500000	97.656	-22.2687
190.000000	97.607	-22.3421
192.500000	97.559	-22.3956
195.000000	97.512	-22.4363
197.500000	97.467	-22.4659
200.000000	97.424	-22.4753
203.000000	97.379	-22.4742
206.000000	97.340	-22.4926
209.000000	97.304	-22.5492
212.000000	97.267	-22.6430
214.000000	97.241	-22.7138
218.000000	97.185	-22.8467
220.000000	97.154	-22.9082
224.000000	97.090	-23.0129
227.000000	97.041	-23.0672
230.000000	96.993	-23.1045
233.000000	96.944	-23.1146
236.000000	96.896	-23.0873
240.000000	96.839	-23.0211
243.000000	96.801	-22.9484
247.000000	96.763	-22.8091
250.000000	96.745	-22.7109
254.000000	96.734	-22.6802
258.000000	96.722	-22.8019
262.000000	96.696	-22.9989
265.000000	96.668	-23.1429
269.000000	96.620	-23.3020
272.000000	96.581	-23.3879
276.000000	96.527	-23.4672
280.000000	96.477	-23.5261
285.000000	96.417	-23.5738
290.000000	96.357	-23.5820
295.000000	96.298	-23.5669
300.000000	96.240	-23.5585
304.000000	96.195	-23.5606
307.000000	96.164	-23.5620
311.000000	96.124	-23.5500
315.000000	96.083	-23.5222
320.000000	96.032	-23.4888
325.000000	95.985	-23.4563
330.000000	95.938	-23.4182
335.000000	95.889	-23.3672
340.000000	95.842	-23.3150
345.000000	95.798	-23.2650
350.000000	95.753	-23.2091
355.000000	95.710	-23.1433
360.000000	95.669	-23.0753
365.000000	95.629	-23.0222
370.000000	95.589	-22.9630
375.000000	95.552	-22.8945
382.000000	95.501	-22.8081
387.000000	95.464	-22.7429
395.000000	95.406	-22.6190
400.000000	95.373	-22.5425
406.000000	95.332	-22.4464
412.000000	95.290	-22.3458
418.000000	95.249	-22.2433
425.000000	95.205	-22.1180
431.000000	95.166	-22.0122
437.000000	95.129	-21.9069
444.000000	95.088	-21.7773
450.000000	95.053	-21.6687
455.000000	95.025	-21.5834
462.000000	94.988	-21.4595
468.000000	94.956	-21.3433
475.000000	94.919	-21.2054
482.000000	94.883	-21.0717
487.000000	94.858	-20.9731
494.000000	94.822	-20.8296
500.000000	94.791	-20.7026
508.000000	94.753	-20.5227
515.000000	94.720	-20.3634
522.000000	94.689	-20.2130
530.000000	94.655	-20.0449
538.000000	94.623	-19.8664
545.000000	94.597	-19.7159
552.000000	94.569	-19.5519
560.000000	94.540	-19.3420
570.000000	94.505	-19.0890
580.000000	94.474	-18.8606
590.000000	94.439	-18.6415
600.000000	94.404	-18.3499
608.000000	94.382	-18.0955
615.000000	94.363	-17.8720
622.000000	94.343	-17.6573
630.000000	94.321	-17.4407
640.000000	94.293	-17.1907
650.000000	94.266	-16.9486
660.000000	94.247	-16.6973
670.000000	94.232	-16.4215
680.000000	94.217	-16.1366
690.000000	94.201	-15.8231
700.000000	94.187	-15.4972
710.000000	94.174	-15.1619
720.000000	94.163	-14.8284
730.000000	94.155	-14.4957
740.000000	94.150	-14.1548
750.000000	94.147	-13.8210
762.000000	94.147	-13.4169
775.000000	94.151	-12.9766
788.000000	94.162	-12.5236
800.000000	94.174	-12.1009
812.000000	94.190	-11.6775
825.000000	94.214	-11.2212
838.000000	94.241	-10.7735
850.000000	94.270	-10.3515
862.000000	94.306	-9.9340
875.000000	94.353	-9.5236
885.000000	94.391	-9.2073
900.000000	94.451	-8.7366
912.000000	94.504	-8.3809
925.000000	94.568	-8.0161
938.000000	94.638	-7.6785
950.000000	94.706	-7.3880
962.000000	94.776	-7.1249
975.000000	94.857	-6.8861
988.000000	94.943	-6.6817
1000.000000	95.025	-6.5215
1015.000000	95.130	-6.3661
1030.000000	95.236	-6.2612
1044.000000	95.335	-6.2112
1060.000000	95.450	-6.2100
1075.000000	95.557	-6.2639
1090.000000	95.663	-6.3729
1106.000000	95.775	-6.5459
1120.000000	95.872	-6.7407
1138.000000	95.992	-7.0482
1150.000000	96.069	-7.2821
1172.000000	96.204	-7.7619
1180.000000	96.250	-7.9530
1206.000000	96.390	-8.6221
1220.000000	96.461	-9.0045
1241.000000	96.560	-9.6093
1250.000000	96.599	-9.8773
1265.000000	96.662	-10.3294
1280.000000	96.720	-10.7806
1315.000000	96.841	-11.8615
1320.000000	96.856	-12.0183
1340.000000	96.914	-12.6315
1360.000000	96.966	-13.2148
1380.000000	97.013	-13.7953
1400.000000	97.056	-14.3803
1430.000000	97.115	-15.2032
1450.000000	97.151	-15.7253
1475.000000	97.194	-16.3754
1500.000000	97.235	-16.9882
1525.000000	97.273	-17.5591
1550.000000	97.311	-18.1024
1575.000000	97.354	-18.6410
1600.000000	97.398	-19.1602
1625.000000	97.443	-19.6405
1650.000000	97.490	-20.1017
1675.000000	97.543	-20.5724
1700.000000	97.600	-21.0322
1725.000000	97.662	-21.4844
1750.000000	97.728	-21.9415
1775.000000	97.799	-22.4042
1800.000000	97.877	-22.8795
1825.000000	97.962	-23.3906
1850.000000	98.054	-23.9462
1875.000000	98.151	-24.5355
1900.000000	98.251	-25.1622
1925.000000	98.355	-25.8373
1950.000000	98.462	-26.5633
1975.000000	98.573	-27.3550
2000.000000	98.684	-28.2077
2030.000000	98.817	-29.2983
2060.000000	98.948	-30.4871
2090.000000	99.077	-31.7855
2120.000000	99.205	-33.1764
2140.000000	99.288	-34.1642
2180.000000	99.445	-36.2895
2200.000000	99.517	-37.4110
2240.000000	99.642	-39.7644
2270.000000	99.721	-41.6334
2300.000000	99.786	-43.5740
2330.000000	99.834	-45.5668
2360.000000	99.866	-47.5997
2400.000000	99.877	-50.3334
2430.000000	99.861	-52.3579
2470.000000	99.812	-54.9845
2500.000000	99.760	-56.8702
2540.000000	99.678	-59.2184
2580.000000	99.595	-61.3430
2620.000000	99.532	-63.2812
2650.000000	99.508	-64.6960
2690.000000	99.508	-66.6508
2720.000000	99.525	-68.2457
2760.000000	99.553	-70.6010
2800.000000	99.576	-73.1787
2850.000000	99.590	-76.6491
2900.000000	99.581	-80.3560
2950.000000	99.544	-84.2664
3000.000000	99.472	-88.3676
3040.000000	99.384	-91.6852
3070.000000	99.301	-94.1761
3110.000000	99.178	-97.4884
3150.000000	99.049	-100.7650
3200.000000	98.893	-104.8486
3250.000000	98.750	-109.0010
3300.000000	98.625	-113.3571
3350.000000	98.510	-118.0232
3400.000000	98.389	-123.0373
3450.000000	98.243	-128.3794
3500.000000	98.067	-133.9909
3550.000000	97.857	-139.8246
3600.000000	97.612	-145.8328
3650.000000	97.327	-151.9507
3700.000000	96.999	-158.0743
3750.000000	96.632	-164.0797
3820.000000	96.083	-172.1537
3870.000000	95.691	-177.6212
3950.000000	95.100	174.1396
4000.000000	94.770	169.2627
4060.000000	94.424	163.6442
4120.000000	94.140	158.2400
4180.000000	93.924	153.0388
4250.000000	93.756	147.2402
4310.000000	93.684	142.5093
4370.000000	93.682	138.0198
4440.000000	93.775	133.0677
4500.000000	93.938	129.0014
4550.000000	94.130	125.6819
4620.000000	94.474	121.0400
4680.000000	94.827	116.9917
4750.000000	95.288	112.1074
4820.000000	95.780	106.9929
4870.000000	96.137	103.1729
4940.000000	96.626	97.5497
5000.000000	97.018	92.4795
5080.000000	97.472	85.4072
5150.000000	97.780	78.9992
5220.000000	97.987	72.5150
5300.000000	98.086	65.2344
5380.000000	98.042	58.3494
5450.000000	97.901	52.8116
5520.000000	97.686	47.8129
5600.000000	97.372	42.8183
5700.000000	96.921	37.6348
5800.000000	96.455	33.4245
5900.000000	96.002	29.8901
6000.000000	95.557	26.6688
6080.000000	95.165	23.9309
6150.000000	94.702	21.2661
6220.000000	93.982	19.1673
6300.000000	92.787	20.4813
6400.000000	91.635	29.5876
6500.000000	91.743	39.4578
6600.000000	92.655	46.4310
6700.000000	93.682	48.4847
6800.000000	94.409	47.8873
6900.000000	94.919	46.9725
7000.000000	95.355	46.3408
7100.000000	95.795	45.8588
7200.000000	96.269	45.3124
7300.000000	96.786	44.5071
7400.000000	97.346	43.2658
7500.000000	97.938	41.3947
7620.000000	98.652	38.0459
7750.000000	99.346	32.7943
7880.000000	99.837	25.8749
8000.000000	100.003	18.4809
8120.000000	99.840	11.0236
8250.000000	99.319	4.0204
8380.000000	98.551	-1.0366
8500.000000	97.742	-3.7693
8620.000000	96.929	-4.7714
8750.000000	96.126	-4.0936
8850.000000	95.627	-2.5050
9000.000000	95.172	0.6063
9120.000000	95.008	2.9392
9250.000000	94.957	5.2553
9380.000000	95.035	7.3104
9500.000000	95.216	8.7480
9620.000000	95.470	9.5023
9750.000000	95.767	9.4041
9880.000000	96.020	8.5083
10000.000000	96.195	7.2953
10150.000000	96.351	5.4819
10300.000000	96.420	3.4713
10440.000000	96.418	1.8013
10600.000000	96.412	0.3247
10750.000000	96.466	-0.9154
10900.000000	96.591	-2.4453
11060.000000	96.772	-4.8275
11200.000000	96.915	-7.7703
11380.000000	96.978	-12.6760
11500.000000	96.901	-16.3691
11720.000000	96.500	-23.0805
11800.000000	96.288	-25.3158
12060.000000	95.469	-31.5157
12200.000000	95.005	-34.3755
12410.000000	94.331	-38.8108
12500.000000	94.033	-40.9552
12650.000000	93.477	-44.9540
12800.000000	92.782	-49.3086
13150.000000	90.400	-57.8884
13200.000000	89.978	-58.6198
13400.000000	88.170	-59.8125
13600.000000	86.297	-58.2306
13800.000000	84.507	-54.2577
14000.000000	82.901	-48.4772
14300.000000	80.956	-37.7186
14500.000000	79.995	-30.0005
14750.000000	79.118	-20.8647
15000.000000	78.372	-12.4106
15250.000000	77.714	-3.3280
15500.000000	77.329	6.1639
15750.000000	77.246	15.1089
16000.000000	77.398	22.8876
16250.000000	77.701	29.2543
16500.000000	78.088	34.0829
16750.000000	78.496	37.4301
17000.000000	78.882	39.4904
17250.000000	79.236	40.4364
17500.000000	79.560	40.2589
17750.000000	79.842	38.8933
18000.000000	80.093	36.3137
18250.000000	80.360	32.1265
18500.000000	80.649	24.9270
18750.000000	80.714	12.4751
19000.000000	79.990	-5.0797
19250.000000	78.001	-21.6331
19500.000000	74.807	-30.2939
19750.000000	71.077	-31.2734
