* Measurement data measured by REW V5.20.13
* Source: Primary Sound Capture Driver, no input selected, R, volume: no control
* Format: 256k Log Swept Sine, 1 sweep at -6.0 dBFS with no timing reference
* Dated: 01/11/2023 1:06:09 PM
* REW Settings:
*  C-weighting compensation: Off
*  Target level: 75.0 dB
* Note: ; 
* Measurement: ThieAudio V16 Divinity L
* Smoothing: 1/24 octave
* Frequency Step: 1/48 octave
* Start Frequency: 20.000 Hz
*
* Freq(Hz)	SPL(dB)	Phase(degrees)
20.000000	100.358	2.5775
20.299999	100.393	2.2328
20.600000	100.427	1.7294
20.900000	100.441	1.0992
21.200001	100.425	0.4516
21.400000	100.398	0.0891
21.799999	100.326	-0.3816
22.000000	100.291	-0.4745
22.400000	100.252	-0.4438
22.700001	100.256	-0.3710
23.000000	100.285	-0.3938
23.299999	100.321	-0.5674
23.600000	100.351	-0.8734
24.000000	100.367	-1.3866
24.299999	100.361	-1.7511
24.700001	100.342	-2.1366
25.000000	100.331	-2.3628
25.400000	100.324	-2.6508
25.799999	100.323	-2.9935
26.200001	100.314	-3.3845
26.500000	100.301	-3.6669
26.900000	100.280	-3.9837
27.200001	100.269	-4.1788
27.600000	100.266	-4.4324
28.000000	100.273	-4.7521
28.500000	100.279	-5.2778
29.000000	100.264	-5.8362
29.500000	100.236	-6.2892
30.000000	100.213	-6.6089
30.400000	100.207	-6.8258
30.700001	100.208	-6.9976
31.100000	100.213	-7.2550
31.500000	100.216	-7.5380
32.000000	100.216	-7.9016
32.500000	100.212	-8.2563
33.000000	100.204	-8.5955
33.500000	100.193	-8.9166
34.000000	100.181	-9.2199
34.500000	100.170	-9.5144
35.000000	100.159	-9.8148
35.500000	100.149	-10.1390
36.000000	100.138	-10.5004
36.500000	100.121	-10.8932
37.000000	100.097	-11.2816
37.500000	100.069	-11.6254
38.200001	100.038	-12.0416
38.700001	100.024	-12.3541
39.500000	99.997	-12.9016
40.000000	99.974	-13.1890
40.599998	99.956	-13.4464
41.200001	99.954	-13.7169
41.799999	99.953	-14.0834
42.500000	99.931	-14.5398
43.099998	99.899	-14.8267
43.700001	99.872	-15.0148
44.400002	99.856	-15.2039
45.000000	99.855	-15.4292
45.500000	99.856	-15.7191
46.200001	99.840	-16.2697
46.799999	99.797	-16.7145
47.500000	99.746	-17.0106
48.200001	99.735	-17.2488
48.700001	99.744	-17.5790
49.400002	99.733	-18.2672
50.000000	99.687	-18.8139
50.799999	99.615	-19.2122
51.500000	99.582	-19.3794
52.200001	99.574	-19.5991
53.000000	99.566	-19.9816
53.799999	99.542	-20.3926
54.500000	99.513	-20.6931
55.200001	99.486	-20.9557
56.000000	99.460	-21.2662
57.000000	99.429	-21.7037
58.000000	99.392	-22.2062
59.000000	99.347	-22.6991
60.000000	99.302	-23.1377
60.799999	99.271	-23.4417
61.500000	99.253	-23.7080
62.200001	99.237	-24.0355
63.000000	99.206	-24.4451
64.000000	99.154	-24.8594
65.000000	99.107	-25.2130
66.000000	99.060	-25.5559
67.000000	99.018	-25.9038
68.000000	98.974	-26.2991
69.000000	98.926	-26.6777
70.000000	98.881	-27.0391
71.000000	98.838	-27.4109
72.000000	98.793	-27.7734
73.000000	98.749	-28.1142
74.000000	98.707	-28.4552
75.000000	98.663	-28.8029
76.199997	98.607	-29.1990
77.500000	98.547	-29.6140
78.800003	98.487	-30.0400
80.000000	98.429	-30.4278
81.199997	98.372	-30.8057
82.500000	98.309	-31.2155
83.800003	98.246	-31.6177
85.000000	98.188	-31.9684
86.199997	98.130	-32.3133
87.500000	98.066	-32.6694
88.500000	98.016	-32.9279
90.000000	97.942	-33.2996
91.199997	97.884	-33.6017
92.500000	97.820	-33.9297
93.800003	97.757	-34.2601
95.000000	97.698	-34.5671
96.199997	97.637	-34.8573
97.500000	97.574	-35.1552
98.800003	97.512	-35.4705
100.000000	97.451	-35.7557
101.500000	97.377	-36.1056
103.000000	97.302	-36.4352
104.400002	97.236	-36.7336
106.000000	97.157	-37.0688
107.500000	97.080	-37.3401
109.000000	97.005	-37.6017
110.599998	96.923	-37.9084
112.000000	96.848	-38.1713
113.800003	96.753	-38.4818
115.000000	96.691	-38.6808
117.199997	96.579	-39.0280
118.000000	96.538	-39.1469
120.599998	96.403	-39.5133
122.000000	96.331	-39.6965
124.099998	96.223	-39.9670
125.000000	96.175	-40.0856
126.500000	96.094	-40.2764
128.000000	96.010	-40.4473
131.500000	95.825	-40.7956
132.000000	95.800	-40.8487
134.000000	95.698	-41.0667
136.000000	95.590	-41.2493
138.000000	95.481	-41.3807
140.000000	95.374	-41.5011
143.000000	95.208	-41.6882
145.000000	95.097	-41.7772
147.500000	94.958	-41.8406
150.000000	94.817	-41.8423
152.500000	94.674	-41.8000
155.000000	94.530	-41.7213
157.500000	94.387	-41.5788
160.000000	94.243	-41.3269
162.500000	94.102	-40.9232
165.000000	93.973	-40.3560
167.500000	93.873	-39.6623
170.000000	93.808	-38.8678
172.500000	93.789	-38.0579
175.000000	93.816	-37.4537
177.500000	93.872	-37.2472
180.000000	93.922	-37.4240
182.500000	93.934	-37.8023
185.000000	93.900	-38.2318
187.500000	93.834	-38.6392
190.000000	93.752	-38.9670
192.500000	93.661	-39.1862
195.000000	93.565	-39.3196
197.500000	93.471	-39.3878
200.000000	93.380	-39.3821
203.000000	93.272	-39.2798
206.000000	93.166	-39.1230
209.000000	93.065	-38.9387
212.000000	92.966	-38.7264
214.000000	92.900	-38.5703
218.000000	92.779	-38.2352
220.000000	92.727	-38.0585
224.000000	92.627	-37.6754
227.000000	92.553	-37.3723
230.000000	92.482	-37.0521
233.000000	92.414	-36.7188
236.000000	92.351	-36.3942
240.000000	92.277	-35.9802
243.000000	92.226	-35.6527
247.000000	92.161	-35.2043
250.000000	92.117	-34.8668
254.000000	92.064	-34.4113
258.000000	92.014	-33.9764
262.000000	91.970	-33.5485
265.000000	91.942	-33.2054
269.000000	91.908	-32.7542
272.000000	91.886	-32.4478
276.000000	91.861	-32.0647
280.000000	91.839	-31.6937
285.000000	91.814	-31.2419
290.000000	91.792	-30.8248
295.000000	91.776	-30.4270
300.000000	91.766	-30.0319
304.000000	91.758	-29.7302
307.000000	91.753	-29.5137
311.000000	91.751	-29.2477
315.000000	91.750	-29.0121
320.000000	91.753	-28.7330
325.000000	91.760	-28.4321
330.000000	91.767	-28.1589
335.000000	91.773	-27.9354
340.000000	91.781	-27.7408
345.000000	91.791	-27.5755
350.000000	91.802	-27.4160
355.000000	91.815	-27.2583
360.000000	91.829	-27.1230
365.000000	91.841	-27.0219
370.000000	91.851	-26.9473
375.000000	91.861	-26.8856
382.000000	91.875	-26.8079
387.000000	91.887	-26.7598
395.000000	91.905	-26.7141
400.000000	91.917	-26.7081
406.000000	91.930	-26.7090
412.000000	91.943	-26.7195
418.000000	91.954	-26.7320
425.000000	91.970	-26.7412
431.000000	91.985	-26.7664
437.000000	92.000	-26.8130
444.000000	92.019	-26.8865
450.000000	92.035	-26.9810
455.000000	92.049	-27.0802
462.000000	92.067	-27.2458
468.000000	92.080	-27.4093
475.000000	92.090	-27.6067
482.000000	92.096	-27.8191
487.000000	92.098	-27.9858
494.000000	92.096	-28.2173
500.000000	92.092	-28.3981
508.000000	92.085	-28.6186
515.000000	92.078	-28.8003
522.000000	92.069	-28.9893
530.000000	92.058	-29.2164
538.000000	92.046	-29.4406
545.000000	92.036	-29.6313
552.000000	92.024	-29.8101
560.000000	92.008	-29.9977
570.000000	91.983	-30.2183
580.000000	91.957	-30.4241
590.000000	91.929	-30.6283
600.000000	91.900	-30.8258
608.000000	91.877	-30.9694
615.000000	91.857	-31.0840
622.000000	91.836	-31.1884
630.000000	91.814	-31.3003
640.000000	91.783	-31.4380
650.000000	91.753	-31.5627
660.000000	91.721	-31.6646
670.000000	91.686	-31.7161
680.000000	91.653	-31.7368
690.000000	91.623	-31.7452
700.000000	91.595	-31.7476
710.000000	91.569	-31.7244
720.000000	91.546	-31.6636
730.000000	91.525	-31.5690
740.000000	91.506	-31.4434
750.000000	91.490	-31.3016
762.000000	91.476	-31.1050
775.000000	91.472	-30.8637
788.000000	91.479	-30.6304
800.000000	91.495	-30.4200
812.000000	91.519	-30.2094
825.000000	91.551	-30.0009
838.000000	91.586	-29.8031
850.000000	91.624	-29.6398
862.000000	91.668	-29.4981
875.000000	91.717	-29.3650
885.000000	91.757	-29.2744
900.000000	91.819	-29.1405
912.000000	91.870	-29.0417
925.000000	91.930	-28.9656
938.000000	91.994	-28.9069
950.000000	92.058	-28.8629
962.000000	92.126	-28.8376
975.000000	92.202	-28.8250
988.000000	92.281	-28.8304
1000.000000	92.356	-28.8612
1015.000000	92.456	-28.9233
1030.000000	92.562	-29.0367
1044.000000	92.664	-29.1981
1060.000000	92.781	-29.4095
1075.000000	92.894	-29.6448
1090.000000	93.005	-29.9274
1106.000000	93.121	-30.2876
1120.000000	93.223	-30.6423
1138.000000	93.348	-31.1049
1150.000000	93.426	-31.4243
1172.000000	93.562	-32.0463
1180.000000	93.611	-32.2817
1206.000000	93.769	-33.0969
1220.000000	93.854	-33.5709
1241.000000	93.982	-34.3111
1250.000000	94.034	-34.6334
1265.000000	94.117	-35.1658
1280.000000	94.196	-35.6849
1315.000000	94.376	-36.9015
1320.000000	94.401	-37.0818
1340.000000	94.507	-37.8240
1360.000000	94.615	-38.5898
1380.000000	94.720	-39.3521
1400.000000	94.819	-40.0883
1430.000000	94.962	-41.1530
1450.000000	95.058	-41.8807
1475.000000	95.184	-42.8303
1500.000000	95.314	-43.8128
1525.000000	95.447	-44.8458
1550.000000	95.580	-45.9419
1575.000000	95.720	-47.0613
1600.000000	95.858	-48.3816
1625.000000	95.951	-49.7390
1650.000000	96.035	-51.0217
1675.000000	96.141	-52.2509
1700.000000	96.245	-53.4296
1725.000000	96.317	-54.5620
1750.000000	96.398	-55.6619
1775.000000	96.478	-56.7844
1800.000000	96.581	-57.8768
1825.000000	96.676	-58.9387
1850.000000	96.762	-60.0116
1875.000000	96.848	-61.0475
1900.000000	96.930	-62.1402
1925.000000	97.014	-63.2356
1950.000000	97.097	-64.2756
1975.000000	97.180	-65.3400
2000.000000	97.262	-66.4479
2030.000000	97.360	-67.7438
2060.000000	97.457	-69.0128
2090.000000	97.553	-70.3096
2120.000000	97.650	-71.5958
2140.000000	97.715	-72.4564
2180.000000	97.844	-74.2268
2200.000000	97.908	-75.1044
2240.000000	98.035	-76.8311
2270.000000	98.128	-78.1529
2300.000000	98.224	-79.4814
2330.000000	98.324	-80.8180
2360.000000	98.424	-82.1879
2400.000000	98.555	-84.0546
2430.000000	98.648	-85.4786
2470.000000	98.768	-87.4338
2500.000000	98.854	-88.9408
2540.000000	98.962	-90.9807
2580.000000	99.065	-93.0632
2620.000000	99.159	-95.1710
2650.000000	99.221	-96.7527
2690.000000	99.295	-98.8721
2720.000000	99.347	-100.4727
2760.000000	99.414	-102.6286
2800.000000	99.476	-104.8246
2850.000000	99.543	-107.6245
2900.000000	99.594	-110.5110
2950.000000	99.623	-113.5189
3000.000000	99.620	-116.6434
3040.000000	99.585	-119.2006
3070.000000	99.536	-121.1167
3110.000000	99.437	-123.6027
3150.000000	99.301	-125.9325
3200.000000	99.090	-128.5085
3250.000000	98.858	-130.6365
3300.000000	98.634	-132.3423
3350.000000	98.441	-133.7111
3400.000000	98.291	-134.8667
3450.000000	98.186	-135.9406
3500.000000	98.121	-137.0404
3550.000000	98.087	-138.2646
3600.000000	98.077	-139.7021
3650.000000	98.075	-141.4044
3700.000000	98.066	-143.4001
3750.000000	98.031	-145.6749
3820.000000	97.908	-149.1985
3870.000000	97.751	-151.8312
3950.000000	97.375	-155.9398
4000.000000	97.064	-158.2736
4060.000000	96.627	-160.7006
4120.000000	96.132	-162.6238
4180.000000	95.595	-163.9647
4250.000000	94.936	-164.7372
4310.000000	94.367	-164.6894
4370.000000	93.818	-163.9764
4440.000000	93.233	-162.3317
4500.000000	92.805	-160.2813
4550.000000	92.515	-158.1962
4620.000000	92.230	-154.8694
4680.000000	92.109	-151.8207
4750.000000	92.116	-148.2842
4820.000000	92.276	-145.0262
4870.000000	92.470	-142.9915
4940.000000	92.833	-140.6775
5000.000000	93.207	-139.2693
5080.000000	93.761	-138.2994
5150.000000	94.266	-138.3397
5220.000000	94.760	-139.2158
5300.000000	95.274	-141.1859
5380.000000	95.693	-144.0486
5450.000000	95.955	-147.1008
5520.000000	96.105	-150.4591
5600.000000	96.136	-154.4176
5700.000000	95.979	-159.1619
5800.000000	95.637	-163.2757
5900.000000	95.158	-166.4258
6000.000000	94.587	-168.4642
6080.000000	94.089	-169.0837
6150.000000	93.669	-168.8307
6220.000000	93.298	-167.9454
6300.000000	92.970	-166.3457
6400.000000	92.741	-164.0994
6500.000000	92.637	-162.1572
6600.000000	92.583	-160.3908
6700.000000	92.577	-158.5896
6800.000000	92.635	-156.7401
6900.000000	92.768	-154.9095
7000.000000	92.982	-153.1959
7100.000000	93.279	-151.7114
7200.000000	93.659	-150.5917
7300.000000	94.116	-149.9943
7400.000000	94.635	-150.0727
7500.000000	95.198	-150.9839
7620.000000	95.889	-153.4172
7750.000000	96.558	-157.9509
7880.000000	97.004	-164.3344
8000.000000	97.124	-171.1962
8120.000000	96.937	-178.0992
8250.000000	96.423	175.3181
8380.000000	95.679	170.3845
8500.000000	94.894	167.4683
8620.000000	94.098	165.9594
8750.000000	93.288	165.5976
8850.000000	92.724	165.9977
9000.000000	91.994	167.3630
9120.000000	91.515	168.8962
9250.000000	91.096	170.8104
9380.000000	90.776	172.8508
9500.000000	90.560	174.7455
9620.000000	90.414	176.5529
9750.000000	90.327	178.2913
9880.000000	90.292	179.7168
10000.000000	90.288	-179.2526
10150.000000	90.304	-178.3363
10300.000000	90.326	-177.7919
10440.000000	90.340	-177.5631
10600.000000	90.345	-177.5917
10750.000000	90.332	-177.8952
10900.000000	90.291	-178.4529
11060.000000	90.199	-179.2515
11200.000000	90.067	179.9984
11380.000000	89.826	179.1573
11500.000000	89.626	178.7728
11720.000000	89.204	178.6709
11800.000000	89.044	178.8613
12060.000000	88.569	-179.7825
12200.000000	88.365	-178.7246
12410.000000	88.145	-176.9656
12500.000000	88.082	-176.2209
12650.000000	88.014	-175.0762
12800.000000	87.978	-174.1063
13150.000000	87.954	-172.6008
13200.000000	87.951	-172.4585
13400.000000	87.936	-171.9983
13600.000000	87.914	-171.6201
13800.000000	87.901	-171.2623
14000.000000	87.915	-170.9696
14300.000000	88.003	-170.9087
14500.000000	88.095	-171.3555
14750.000000	88.192	-172.5657
15000.000000	88.224	-174.2080
15250.000000	88.212	-175.9174
15500.000000	88.209	-177.7366
15750.000000	88.227	179.9957
16000.000000	88.230	177.0829
16250.000000	88.190	173.4310
16500.000000	88.041	168.9122
16750.000000	87.690	163.8932
17000.000000	87.098	159.2949
17250.000000	86.330	155.9945
17500.000000	85.516	154.2157
17750.000000	84.760	153.7044
18000.000000	84.123	154.1434
18250.000000	83.661	155.1980
18500.000000	83.425	156.3669
18750.000000	83.419	156.9729
19000.000000	83.581	156.3851
19250.000000	83.801	154.4116
19500.000000	84.013	151.4177
19750.000000	84.204	148.1489
